Folder: Corrado

File: XRD_data.ASC
10 0 31.4038
10.24 -0.212206 31.0566
10.48 0 35.6807
10.72 0 30.0191
10.96 0 29.2482
11.2 -1.7277 29.6105
11.44 3.677 30.5641
11.68 0 28.5028
11.92 0 28.4557
12.16 9.11187 28.4877
12.4 0 27.1775
12.64 14.3845 33.1947
12.88 7.03814 32.4897
13.12 4.93339 28.5694
13.36 53.9244 28.3806
13.6 47.9701 32.6118
13.84 48.1104 35.6458
14.08 117.95 35.3548
14.32 96.9785 34.9538
14.56 93.6594 34.0909
14.8 66.447 32.8454
15.04 64.3805 32.6798
15.28 62.5884 31.5437
15.52 0.471755 27.4782
15.76 60.6546 28.0335
16 -2.5995 28.3678
16.24 -1.8367 27.0231
16.48 0 23.998
16.72 0 23.6489
16.96 0 23.2732
17.2 11.5887 26.8159
17.44 0 25.6873
17.68 0 22.7582
17.92 0 22.6677
18.16 0 22.4214
18.4 0 21.9911
18.64 10.6388 22.6606
18.88 -0.835871 22.2125
19.12 32.5449 23.9507
19.36 4.96094 21.9813
19.6 11.3749 24.9233
19.84 1.91299 26.7386
20.08 14.747 25.5043
20.32 47.436 26.8983
20.56 32.9176 28.0713
20.8 46.9683 28.5725
21.04 114.684 33.7683
21.28 125.673 34.3855
21.52 2.93122 28.8522
21.76 14.5106 28.3126
22 45.4781 25.9347
22.24 19.6605 26.575
22.48 36.6287 28.3012
22.72 58.1127 28.6544
22.96 88.8875 28.5454
23.2 80.2029 31.5836
23.44 139.219 31.6591
23.68 173.897 33.4683
23.92 260.977 37.7965
24.16 446.038 47.547
24.4 602.361 55.0778
24.64 496.398 51.3
24.88 577.443 52.6406
25.12 1146.87 69.4464
25.36 2744.18 100.506
25.6 1671.71 89.206
25.84 591.942 56.4605
26.08 360.126 45.6269
26.32 191.596 38.9327
26.56 90.2882 34.6349
26.8 48.0048 31.406
27.04 81.3688 30.1348
27.28 3.70605 26.881
27.52 9.69648 26.013
27.76 31.5293 25.7192
28 37.6157 27.5093
28.24 118.901 32.8387
28.48 20.0306 29.3338
28.72 13.0273 22.6079
28.96 0 22.2057
29.2 24.1526 25.2583
29.44 0 21.6345
29.68 22.9715 25.3712
29.92 9.83945 28.0818
30.16 -2.90872 26.0804
30.4 13.9996 26.1529
30.64 46.148 26.0084
30.88 57.2885 27.2888
31.12 50.9151 30.1106
31.36 79.8029 31.0585
31.6 146.669 36.1692
31.84 39.8803 32.0195
32.08 28.2627 25.1638
32.32 61.9369 28.1641
32.56 48.2917 31.1266
32.8 129.952 31.038
33.04 115.443 30.8522
33.28 127.504 34.1669
33.52 144.763 36.2037
33.76 64.0616 30.7259
34 72.2045 26.4719
34.24 -1.82131 26.757
34.48 42.6992 23.3548
34.72 36.1071 25.7892
34.96 21.7155 22.8567
35.2 0.728108 24.5875
35.44 18.5062 25.5849
35.68 77.1418 29.7364
35.92 95.1373 29.2537
36.16 108.338 34.107
36.4 83.642 31.5265
36.64 69.3057 30.9949
36.88 52.2569 27.1691
37.12 58.8696 27.4318
37.36 25.2414 26.4087
37.6 60.4041 26.9078
37.84 39.5666 23.5622
38.08 -2.77083 21.3141
38.32 12.8408 21.7094
38.56 0 20.4522
38.8 0.556691 21.9557
39.04 91.8321 23.4588
39.28 21.7623 28.294
39.52 9.20404 24.7578
39.76 3.20288 23.4707
40 21.2299 22.6815
40.24 225.351 32.875
40.48 2245.36 77.391
40.72 2427.54 107.091
40.96 210.472 50.4631
41.2 70.9421 30.7005
41.44 0 25.4414
41.68 4.85858 24.5847
41.92 6.21612 24.168
42.16 0 20.4607
42.4 0 20.4281
42.64 0 20.6875
42.88 14.9418 23.8315
43.12 53.9822 24.512
43.36 0 20.5176
43.6 24.3341 24.1991
43.84 26.9469 23.4737
44.08 39.7095 26.5141
44.32 133.177 31.8276
44.56 267.385 36.5403
44.8 311.038 41.5304
45.04 154.886 35.3492
45.28 113.506 28.8774
45.52 36.6601 25.6133
45.76 21.8798 25.3339
46 3.35955 24.3602
46.24 -1.65198 19.4577
46.48 20.4923 22.87
46.72 0 18.7418
46.96 6.60226 22.4944
47.2 0.805021 19.629
47.44 1.91927 19.8773
47.68 30.5141 20.3916
47.92 22.6974 19.1683
48.16 0 18.0834
48.4 0 17.5669
48.64 0 17.9496
48.88 0 17.572
49.12 17.8161 21.4236
49.36 13.9238 19.7097
49.6 0 17.4226
49.84 19.7017 18.0669
50.08 -1.31188 17.3804
50.32 0 17.0806
50.56 1.79536 18.3057
50.8 0 17.0025
51.04 0 16.4545
51.28 12.0992 18.1809
51.52 11.4939 19.2829
51.76 39.387 23.6949
52 99.7279 27.3761
52.24 127.305 29.854
52.48 37.5017 24.4893
52.72 28.5987 21.0563
52.96 -2.00179 16.4045
53.2 1.55183 17.3633
53.44 6.65818 16.5362
53.68 0 15.9409
53.92 3.31904 16.2722
54.16 -2.23369 15.9829
54.4 14.3029 17.2855
54.64 0 15.7371
54.88 30.9487 16.7677
55.12 0 15.2198
55.36 6.90974 16.0718
55.6 0 15.2522
55.84 0 15.1698
56.08 0 14.4087
56.32 -2.67521 15.1033
56.56 0 14.9867
56.8 -1.09718 17.6679
57.04 23.1266 16.5176
57.28 0.694578 15.8523
57.52 29.8932 17.615
57.76 17.2457 19.0143
58 63.0972 19.9364
58.24 33.2376 21.9664
58.48 107.46 27.1928
58.72 343.01 35.4094
58.96 93.4764 34.0875
59.2 39.9998 25.1975
59.44 40.755 19.6927
59.68 36.0226 19.1472
59.92 7.6686 19.4972
60.16 0.0340795 16.1913
60.4 0 15.9188
60.64 23.3321 16.8159
60.88 -0.684971 16.0975
61.12 5.79597 17.2559
61.36 0 15.7113
61.6 -2.75168 19.188
61.84 9.3983 17.7831
62.08 0 15.8815
62.32 -2.93418 15.8903
62.56 0 15.5492
62.8 0 15.7816
63.04 -1.49132 15.822
63.28 0 15.3822
63.52 0 15.4884
63.76 14.9544 17.2367
64 10.6232 18.439
64.24 42.4038 17.9721
64.48 49.8811 20.6284
64.72 10.7904 16.0622
64.96 55.9573 20.9657
65.2 25.8034 18.2515
65.44 20.1476 20.3743
65.68 -0.448745 19.0646
65.92 -2.08709 18.4596
66.16 -0.572266 15.2629
66.4 0 18.2476
66.64 -0.835754 15.0116
66.88 -0.300831 14.918
67.12 7.09356 17.2505
67.36 0 14.42
67.6 4.9559 14.7356
67.84 7.93189 17.979
68.08 1.08287 16.6226
68.32 18.2208 15.1973
68.56 1.93546 15.9291
68.8 2.64003 17.1038
69.04 5.44678 16.5268
69.28 0 13.681
69.52 0 13.8603
69.76 15.0417 14.5963
70 9.27437 18.5814
70.24 31.3217 19.468
70.48 58.9719 19.3449
70.72 59.8886 20.8943
70.96 36.4384 22.0945
71.2 52.3724 22.1723
71.44 12.6116 19.656
71.68 26.4692 18.6762
71.92 0 16.6243
72.16 3.43416 17.219
72.4 0 16.9203
72.64 14.1513 16.9072
72.88 19.125 16.7982
73.12 21.9672 17.3117
73.36 80.1847 20.9152
73.6 497.58 34.1118
73.84 972.087 55.381
74.08 246.94 50.3206
74.32 95.9109 29.0203
74.56 46.7301 20.7618
74.8 4.68996 18.6963
75.04 15.9137 18.1768
75.28 6.6683 17.7581
75.52 14.4317 16.1809
75.76 -2.29209 15.5538
76 12.0866 15.5304
76.24 2.99468 15.5597
76.48 0 12.6653
76.72 -1.99949 15.2425
76.96 0 12.3563
77.2 -0.90875 15.3909
77.44 6.31825 14.4554
77.68 0.995267 13.5315
77.92 1.23818 13.5986
78.16 1.4811 13.6581
78.4 3.00718 14.1179
78.64 7.82704 14.0618
78.88 0 12.4001
79.12 1.7861 13.6462
79.36 1.36235 13.4727
79.6 6.00773 13.4229
79.84 0 12.3006
79.99 -0.0303645 12.495